File: XRD/Task 3/UnknownPowder.csv
Angle, TimePerStep, Intensity
10.02,0.5,12
10.08,0.5,12
10.14,0.5,9
10.2,0.5,14
10.26,0.5,10
10.32,0.5,16
10.38,0.5,11
10.44,0.5,8
10.5,0.5,9
10.56,0.5,14
10.62,0.5,11
10.68,0.5,15
10.74,0.5,12
10.8,0.5,16
10.86,0.5,8
10.92,0.5,14
10.98,0.5,23
11.04,0.5,21
11.1,0.5,18
11.16,0.5,13
11.22,0.5,13
11.28,0.5,11
11.34,0.5,16
11.4,0.5,14
11.46,0.5,11
11.52,0.5,11
11.58,0.5,13
11.64,0.5,11
11.7,0.5,25
11.76,0.5,19
11.82,0.5,17
11.88,0.5,15
11.94,0.5,17
12,0.5,11
12.06,0.5,17
12.12,0.5,13
12.18,0.5,16
12.24,0.5,14
12.3,0.5,15
12.36,0.5,13
12.42,0.5,8
12.48,0.5,10
12.54,0.5,12
12.6,0.5,13
12.66,0.5,11
12.72,0.5,9
12.78,0.5,20
12.84,0.5,15
12.9,0.5,10
12.96,0.5,12
13.02,0.5,10
13.08,0.5,9
13.14,0.5,12
13.2,0.5,11
13.26,0.5,13
13.32,0.5,10
13.38,0.5,11
13.44,0.5,10
13.5,0.5,15
13.56,0.5,11
13.62,0.5,17
13.68,0.5,13
13.74,0.5,13
13.8,0.5,8
13.86,0.5,11
13.92,0.5,18
13.98,0.5,10
14.04,0.5,11
14.1,0.5,16
14.16,0.5,8
14.22,0.5,10
14.28,0.5,10
14.34,0.5,11
14.4,0.5,11
14.46,0.5,11
14.52,0.5,10
14.58,0.5,9
14.64,0.5,13
14.7,0.5,11
14.76,0.5,9
14.82,0.5,5
14.88,0.5,8
14.94,0.5,6
15,0.5,7
15.06,0.5,4
15.12,0.5,5
15.18,0.5,15
15.24,0.5,5
15.3,0.5,10
15.36,0.5,9
15.42,0.5,7
15.48,0.5,4
15.54,0.5,8
15.6,0.5,9
15.66,0.5,15
15.72,0.5,7
15.78,0.5,11
15.84,0.5,7
15.9,0.5,9
15.96,0.5,14
16.02,0.5,5
16.08,0.5,13
16.14,0.5,5
16.2,0.5,9
16.26,0.5,14
16.32,0.5,7
16.38,0.5,14
16.44,0.5,10
16.5,0.5,7
16.56,0.5,7
16.62,0.5,8
16.68,0.5,8
16.74,0.5,6
16.8,0.5,5
16.86,0.5,6
16.92,0.5,10
16.98,0.5,8
17.04,0.5,3
17.1,0.5,6
17.16,0.5,9
17.22,0.5,7
17.28,0.5,4
17.34,0.5,9
17.4,0.5,5
17.46,0.5,7
17.52,0.5,7
17.58,0.5,10
17.64,0.5,9
17.7,0.5,4
17.76,0.5,2
17.82,0.5,6
17.88,0.5,9
17.94,0.5,7
18,0.5,5
18.06,0.5,6
18.12,0.5,7
18.18,0.5,14
18.24,0.5,8
18.3,0.5,5
18.36,0.5,2
18.42,0.5,4
18.48,0.5,7
18.54,0.5,3
18.6,0.5,4
18.66,0.5,5
18.72,0.5,7
18.78,0.5,6
18.84,0.5,4
18.9,0.5,4
18.96,0.5,3
19.02,0.5,4
19.08,0.5,7
19.14,0.5,5
19.2,0.5,7
19.26,0.5,6
19.32,0.5,8
19.38,0.5,7
19.44,0.5,10
19.5,0.5,6
19.56,0.5,9
19.62,0.5,5
19.68,0.5,8
19.74,0.5,1
19.8,0.5,4
19.86,0.5,4
19.92,0.5,5
19.98,0.5,3
20.04,0.5,4
20.1,0.5,3
20.16,0.5,5
20.22,0.5,7
20.28,0.5,8
20.34,0.5,5
20.4,0.5,5
20.46,0.5,6
20.52,0.5,5
20.58,0.5,7
20.64,0.5,3
20.7,0.5,5
20.76,0.5,7
20.82,0.5,4
20.88,0.5,3
20.94,0.5,0
21,0.5,5
21.06,0.5,2
21.12,0.5,7
21.18,0.5,3
21.24,0.5,7
21.3,0.5,9
21.36,0.5,7
21.42,0.5,3
21.48,0.5,8
21.54,0.5,4
21.6,0.5,5
21.66,0.5,7
21.72,0.5,3
21.78,0.5,4
21.84,0.5,5
21.9,0.5,2
21.96,0.5,10
22.02,0.5,4
22.08,0.5,2
22.14,0.5,4
22.2,0.5,1
22.26,0.5,3
22.32,0.5,3
22.38,0.5,3
22.44,0.5,2
22.5,0.5,7
22.56,0.5,1
22.62,0.5,6
22.68,0.5,4
22.74,0.5,5
22.8,0.5,6
22.86,0.5,7
22.92,0.5,6
22.98,0.5,1
23.04,0.5,2
23.1,0.5,5
23.16,0.5,2
23.22,0.5,2
23.28,0.5,4
23.34,0.5,2
23.4,0.5,3
23.46,0.5,2
23.52,0.5,2
23.58,0.5,5
23.64,0.5,6
23.7,0.5,3
23.76,0.5,3
23.82,0.5,2
23.88,0.5,1
23.94,0.5,3
24,0.5,0
24.06,0.5,5
24.12,0.5,2
24.18,0.5,7
24.24,0.5,1
24.3,0.5,4
24.36,0.5,5
24.42,0.5,5
24.48,0.5,6
24.54,0.5,3
24.6,0.5,5
24.66,0.5,9
24.72,0.5,5
24.78,0.5,3
24.84,0.5,5
24.9,0.5,3
24.96,0.5,5
25.02,0.5,4
25.08,0.5,2
25.14,0.5,2
25.2,0.5,9
25.26,0.5,4
25.32,0.5,4
25.38,0.5,2
25.44,0.5,4
25.5,0.5,5
25.56,0.5,6
25.62,0.5,5
25.68,0.5,1
25.74,0.5,6
25.8,0.5,5
25.86,0.5,7
25.92,0.5,7
25.98,0.5,5
26.04,0.5,6
26.1,0.5,4
26.16,0.5,8
26.22,0.5,4
26.28,0.5,5
26.34,0.5,2
26.4,0.5,11
26.46,0.5,4
26.52,0.5,4
26.58,0.5,4
26.64,0.5,2
26.7,0.5,5
26.76,0.5,7
26.82,0.5,14
26.88,0.5,7
26.94,0.5,13
27,0.5,9
27.06,0.5,7
27.12,0.5,13
27.18,0.5,10
27.24,0.5,13
27.3,0.5,15
27.36,0.5,14
27.42,0.5,16
27.48,0.5,13
27.54,0.5,28
27.6,0.5,14
27.66,0.5,19
27.72,0.5,15
27.78,0.5,28
27.84,0.5,35
27.9,0.5,29
27.96,0.5,36
28.02,0.5,39
28.08,0.5,48
28.14,0.5,47
28.2,0.5,52
28.26,0.5,46
28.32,0.5,75
28.38,0.5,51
28.44,0.5,59
28.5,0.5,58
28.56,0.5,59
28.62,0.5,51
28.68,0.5,56
28.74,0.5,59
28.8,0.5,45
28.86,0.5,54
28.92,0.5,35
28.98,0.5,37
29.04,0.5,29
29.1,0.5,36
29.16,0.5,34
29.22,0.5,22
29.28,0.5,26
29.34,0.5,24
29.4,0.5,23
29.46,0.5,21
29.52,0.5,7
29.58,0.5,10
29.64,0.5,12
29.7,0.5,8
29.76,0.5,10
29.82,0.5,13
29.88,0.5,14
29.94,0.5,7
30,0.5,7
30.06,0.5,8
30.12,0.5,3
30.18,0.5,6
30.24,0.5,9
30.3,0.5,4
30.36,0.5,11
30.42,0.5,4
30.48,0.5,3
30.54,0.5,10
30.6,0.5,6
30.66,0.5,4
30.72,0.5,5
30.78,0.5,5
30.84,0.5,4
30.9,0.5,4
30.96,0.5,3
31.02,0.5,8
31.08,0.5,5
31.14,0.5,6
31.2,0.5,4
31.26,0.5,5
31.32,0.5,5
31.38,0.5,4
31.44,0.5,2
31.5,0.5,5
31.56,0.5,5
31.62,0.5,2
31.68,0.5,3
31.74,0.5,8
31.8,0.5,8
31.86,0.5,4
31.92,0.5,9
31.98,0.5,8
32.04,0.5,7
32.1,0.5,11
32.16,0.5,5
32.22,0.5,9
32.28,0.5,12
32.34,0.5,6
32.4,0.5,12
32.46,0.5,12
32.52,0.5,12
32.58,0.5,10
32.64,0.5,15
32.7,0.5,10
32.76,0.5,12
32.82,0.5,15
32.88,0.5,21
32.94,0.5,25
33,0.5,17
33.06,0.5,14
33.12,0.5,24
33.18,0.5,15
33.24,0.5,17
33.3,0.5,14
33.36,0.5,13
33.42,0.5,19
33.48,0.5,11
33.54,0.5,11
33.6,0.5,6
33.66,0.5,8
33.72,0.5,11
33.78,0.5,10
33.84,0.5,8
33.9,0.5,7
33.96,0.5,7
34.02,0.5,7
34.08,0.5,7
34.14,0.5,9
34.2,0.5,4
34.26,0.5,8
34.32,0.5,7
34.38,0.5,5
34.44,0.5,5
34.5,0.5,4
34.56,0.5,5
34.62,0.5,4
34.68,0.5,6
34.74,0.5,2
34.8,0.5,5
34.86,0.5,2
34.92,0.5,4
34.98,0.5,6
35.04,0.5,5
35.1,0.5,2
35.16,0.5,1
35.22,0.5,5
35.28,0.5,3
35.34,0.5,1
35.4,0.5,6
35.46,0.5,2
35.52,0.5,3
35.58,0.5,4
35.64,0.5,1
35.7,0.5,1
35.76,0.5,3
35.82,0.5,4
35.88,0.5,3
35.94,0.5,3
36,0.5,4
36.06,0.5,3
36.12,0.5,2
36.18,0.5,2
36.24,0.5,3
36.3,0.5,3
36.36,0.5,1
36.42,0.5,3
36.48,0.5,1
36.54,0.5,2
36.6,0.5,3
36.66,0.5,2
36.72,0.5,1
36.78,0.5,2
36.84,0.5,4
36.9,0.5,4
36.96,0.5,4
37.02,0.5,5
37.08,0.5,2
37.14,0.5,2
37.2,0.5,2
37.26,0.5,1
37.32,0.5,4
37.38,0.5,1
37.44,0.5,2
37.5,0.5,4
37.56,0.5,1
37.62,0.5,3
37.68,0.5,1
37.74,0.5,4
37.8,0.5,2
37.86,0.5,2
37.92,0.5,2
37.98,0.5,3
38.04,0.5,7
38.1,0.5,6
38.16,0.5,1
38.22,0.5,3
38.28,0.5,1
38.34,0.5,2
38.4,0.5,2
38.46,0.5,4
38.52,0.5,3
38.58,0.5,7
38.64,0.5,8
38.7,0.5,1
38.76,0.5,4
38.82,0.5,1
38.88,0.5,1
38.94,0.5,3
39,0.5,2
39.06,0.5,1
39.12,0.5,2
39.18,0.5,0
39.24,0.5,2
39.3,0.5,2
39.36,0.5,3
39.42,0.5,1
39.48,0.5,3
39.54,0.5,2
39.6,0.5,2
39.66,0.5,7
39.72,0.5,0
39.78,0.5,2
39.84,0.5,4
39.9,0.5,10
39.96,0.5,6
40.02,0.5,4
40.08,0.5,3
40.14,0.5,3
40.2,0.5,3
40.26,0.5,4
40.32,0.5,2
40.38,0.5,2
40.44,0.5,5
40.5,0.5,1
40.56,0.5,1
40.62,0.5,1
40.68,0.5,4
40.74,0.5,4
40.8,0.5,1
40.86,0.5,2
40.92,0.5,4
40.98,0.5,4
41.04,0.5,5
41.1,0.5,4
41.16,0.5,6
41.22,0.5,3
41.28,0.5,1
41.34,0.5,2
41.4,0.5,4
41.46,0.5,4
41.52,0.5,2
41.58,0.5,5
41.64,0.5,1
41.7,0.5,5
41.76,0.5,3
41.82,0.5,7
41.88,0.5,5
41.94,0.5,6
42,0.5,7
42.06,0.5,7
42.12,0.5,2
42.18,0.5,1
42.24,0.5,7
42.3,0.5,1
42.36,0.5,6
42.42,0.5,5
42.48,0.5,1
42.54,0.5,8
42.6,0.5,6
42.66,0.5,5
42.72,0.5,5
42.78,0.5,3
42.84,0.5,3
42.9,0.5,5
42.96,0.5,6
43.02,0.5,9
43.08,0.5,5
43.14,0.5,8
43.2,0.5,6
43.26,0.5,9
43.32,0.5,7
43.38,0.5,9
43.44,0.5,8
43.5,0.5,6
43.56,0.5,10
43.62,0.5,5
43.68,0.5,7
43.74,0.5,5
43.8,0.5,16
43.86,0.5,11
43.92,0.5,12
43.98,0.5,15
44.04,0.5,9
44.1,0.5,8
44.16,0.5,4
44.22,0.5,8
44.28,0.5,9
44.34,0.5,8
44.4,0.5,8
44.46,0.5,9
44.52,0.5,7
44.58,0.5,11
44.64,0.5,15
44.7,0.5,14
44.76,0.5,8
44.82,0.5,6
44.88,0.5,12
44.94,0.5,6
45,0.5,8
45.06,0.5,16
45.12,0.5,12
45.18,0.5,14
45.24,0.5,4
45.3,0.5,10
45.36,0.5,6
45.42,0.5,8
45.48,0.5,7
45.54,0.5,9
45.6,0.5,12
45.66,0.5,11
45.72,0.5,13
45.78,0.5,11
45.84,0.5,6
45.9,0.5,8
45.96,0.5,16
46.02,0.5,16
46.08,0.5,14
46.14,0.5,15
46.2,0.5,13
46.26,0.5,15
46.32,0.5,11
46.38,0.5,11
46.44,0.5,12
46.5,0.5,16
46.56,0.5,18
46.62,0.5,23
46.68,0.5,19
46.74,0.5,16
46.8,0.5,19
46.86,0.5,20
46.92,0.5,22
46.98,0.5,16
47.04,0.5,32
47.1,0.5,33
47.16,0.5,29
47.22,0.5,31
47.28,0.5,39
47.34,0.5,41
47.4,0.5,35
47.46,0.5,43
47.52,0.5,36
47.58,0.5,32
47.64,0.5,33
47.7,0.5,32
47.76,0.5,41
47.82,0.5,37
47.88,0.5,30
47.94,0.5,28
48,0.5,19
48.06,0.5,24
48.12,0.5,22
48.18,0.5,14
48.24,0.5,15
48.3,0.5,13
48.36,0.5,17
48.42,0.5,11
48.48,0.5,12
48.54,0.5,16
48.6,0.5,11
48.66,0.5,10
48.72,0.5,11
48.78,0.5,6
48.84,0.5,6
48.9,0.5,6
48.96,0.5,6
49.02,0.5,3
49.08,0.5,6
49.14,0.5,8
49.2,0.5,4
49.26,0.5,9
49.32,0.5,9
49.38,0.5,4
49.44,0.5,4
49.5,0.5,5
49.56,0.5,6
49.62,0.5,6
49.68,0.5,2
49.74,0.5,7
49.8,0.5,9
49.86,0.5,8
49.92,0.5,6
49.98,0.5,7
50.04,0.5,3
50.1,0.5,2
50.16,0.5,3
50.22,0.5,6
50.28,0.5,5
50.34,0.5,1
50.4,0.5,5
50.46,0.5,1
50.52,0.5,5
50.58,0.5,3
50.64,0.5,3
50.7,0.5,7
50.76,0.5,9
50.82,0.5,2
50.88,0.5,5
50.94,0.5,3
51,0.5,2
51.06,0.5,1
51.12,0.5,4
51.18,0.5,2
51.24,0.5,5
51.3,0.5,3
51.36,0.5,3
51.42,0.5,5
51.48,0.5,4
51.54,0.5,2
51.6,0.5,4
51.66,0.5,8
51.72,0.5,10
51.78,0.5,6
51.84,0.5,4
51.9,0.5,3
51.96,0.5,4
52.02,0.5,7
52.08,0.5,4
52.14,0.5,4
52.2,0.5,2
52.26,0.5,5
52.32,0.5,5
52.38,0.5,4
52.44,0.5,2
52.5,0.5,5
52.56,0.5,6
52.62,0.5,4
52.68,0.5,3
52.74,0.5,3
52.8,0.5,4
52.86,0.5,3
52.92,0.5,3
52.98,0.5,5
53.04,0.5,2
53.1,0.5,4
53.16,0.5,4
53.22,0.5,3
53.28,0.5,4
53.34,0.5,9
53.4,0.5,4
53.46,0.5,5
53.52,0.5,2
53.58,0.5,7
53.64,0.5,3
53.7,0.5,1
53.76,0.5,3
53.82,0.5,5
53.88,0.5,4
53.94,0.5,2
54,0.5,2
54.06,0.5,5
54.12,0.5,6
54.18,0.5,4
54.24,0.5,3
54.3,0.5,7
54.36,0.5,4
54.42,0.5,2
54.48,0.5,6
54.54,0.5,4
54.6,0.5,11
54.66,0.5,4
54.72,0.5,5
54.78,0.5,8
54.84,0.5,3
54.9,0.5,6
54.96,0.5,7
55.02,0.5,9
55.08,0.5,13
55.14,0.5,7
55.2,0.5,11
55.26,0.5,4
55.32,0.5,18
55.38,0.5,13
55.44,0.5,9
55.5,0.5,15
55.56,0.5,13
55.62,0.5,14
55.68,0.5,13
55.74,0.5,16
55.8,0.5,16
55.86,0.5,23
55.92,0.5,20
55.98,0.5,30
56.04,0.5,26
56.1,0.5,22
56.16,0.5,21
56.22,0.5,30
56.28,0.5,29
56.34,0.5,24
56.4,0.5,22
56.46,0.5,23
56.52,0.5,40
56.58,0.5,20
56.64,0.5,28
56.7,0.5,28
56.76,0.5,21
56.82,0.5,19
56.88,0.5,23
56.94,0.5,15
57,0.5,9
57.06,0.5,14
57.12,0.5,15
57.18,0.5,11
57.24,0.5,7
57.3,0.5,11
57.36,0.5,12
57.42,0.5,2
57.48,0.5,6
57.54,0.5,4
57.6,0.5,7
57.66,0.5,3
57.72,0.5,7
57.78,0.5,13
57.84,0.5,9
57.9,0.5,5
57.96,0.5,4
58.02,0.5,3
58.08,0.5,6
58.14,0.5,6
58.2,0.5,5
58.26,0.5,11
58.32,0.5,3
58.38,0.5,7
58.44,0.5,3
58.5,0.5,6
58.56,0.5,5
58.62,0.5,6
58.68,0.5,13
58.74,0.5,2
58.8,0.5,3
58.86,0.5,6
58.92,0.5,6
58.98,0.5,10
59.04,0.5,4
59.1,0.5,7
59.16,0.5,8
59.22,0.5,9
59.28,0.5,5
59.34,0.5,5
59.4,0.5,9
59.46,0.5,5
59.52,0.5,7
59.58,0.5,6
59.64,0.5,7
59.7,0.5,11
59.76,0.5,4
59.82,0.5,2
59.88,0.5,6
59.94,0.5,2
60,0.5,7
60.06,0.5,3
60.12,0.5,4
60.18,0.5,3
60.24,0.5,4
60.3,0.5,5
60.36,0.5,2
60.42,0.5,2
60.48,0.5,2
60.54,0.5,1
60.6,0.5,1
60.66,0.5,3
60.72,0.5,2
60.78,0.5,2
60.84,0.5,4
60.9,0.5,0
60.96,0.5,7
61.02,0.5,1
61.08,0.5,4
61.14,0.5,2
61.2,0.5,2
61.26,0.5,3
61.32,0.5,2
61.38,0.5,2
61.44,0.5,3
61.5,0.5,3
61.56,0.5,0
61.62,0.5,3
61.68,0.5,1
61.74,0.5,2
61.8,0.5,1
61.86,0.5,1
61.92,0.5,2
61.98,0.5,1
62.04,0.5,2
62.1,0.5,3
62.16,0.5,3
62.22,0.5,0
62.28,0.5,1
62.34,0.5,1
62.4,0.5,1
62.46,0.5,2
62.52,0.5,2
62.58,0.5,3
62.64,0.5,3
62.7,0.5,4
62.76,0.5,4
62.82,0.5,1
62.88,0.5,1
62.94,0.5,2
63,0.5,1
63.06,0.5,1
63.12,0.5,0
63.18,0.5,3
63.24,0.5,2
63.3,0.5,1
63.36,0.5,3
63.42,0.5,4
63.48,0.5,1
63.54,0.5,1
63.6,0.5,3
63.66,0.5,0
63.72,0.5,2
63.78,0.5,1
63.84,0.5,4
63.9,0.5,3
63.96,0.5,0
64.02,0.5,1
64.08,0.5,3
64.14,0.5,4
64.2,0.5,1
64.26,0.5,3
64.32,0.5,1
64.38,0.5,3
64.44,0.5,1
64.5,0.5,0
64.56,0.5,6
64.62,0.5,2
64.68,0.5,6
64.74,0.5,2
64.8,0.5,2
64.86,0.5,3
64.92,0.5,5
64.98,0.5,0
65.04,0.5,4
65.1,0.5,2
65.16,0.5,2
65.22,0.5,1
65.28,0.5,3
65.34,0.5,2
65.4,0.5,1
65.46,0.5,0
65.52,0.5,1
65.58,0.5,1
65.64,0.5,2
65.7,0.5,2
65.76,0.5,1
65.82,0.5,2
65.88,0.5,3
65.94,0.5,0
66,0.5,5
66.06,0.5,5
66.12,0.5,1
66.18,0.5,3
66.24,0.5,3
66.3,0.5,2
66.36,0.5,1
66.42,0.5,1
66.48,0.5,2
66.54,0.5,1
66.6,0.5,3
66.66,0.5,4
66.72,0.5,3
66.78,0.5,1
66.84,0.5,1
66.9,0.5,0
66.96,0.5,2
67.02,0.5,1
67.08,0.5,3
67.14,0.5,4
67.2,0.5,2
67.26,0.5,3
67.32,0.5,0
67.38,0.5,2
67.44,0.5,0
67.5,0.5,2
67.56,0.5,3
67.62,0.5,4
67.68,0.5,3
67.74,0.5,2
67.8,0.5,3
67.86,0.5,0
67.92,0.5,1
67.98,0.5,4
68.04,0.5,1
68.1,0.5,3
68.16,0.5,2
68.22,0.5,5
68.28,0.5,3
68.34,0.5,3
68.4,0.5,6
68.46,0.5,4
68.52,0.5,6
68.58,0.5,3
68.64,0.5,7
68.7,0.5,2
68.76,0.5,5
68.82,0.5,0
68.88,0.5,4
68.94,0.5,4
69,0.5,4
69.06,0.5,4
69.12,0.5,4
69.18,0.5,5
69.24,0.5,5
69.3,0.5,4
69.36,0.5,8
69.42,0.5,5
69.48,0.5,8
69.54,0.5,3
69.6,0.5,6
69.66,0.5,6
69.72,0.5,2
69.78,0.5,7
69.84,0.5,3
69.9,0.5,3
69.96,0.5,2
70.02,0.5,2
70.08,0.5,1
70.14,0.5,6
70.2,0.5,4
70.26,0.5,6
70.32,0.5,2
70.38,0.5,2
70.44,0.5,1
70.5,0.5,2
70.56,0.5,2
70.62,0.5,5
70.68,0.5,2
70.74,0.5,2
70.8,0.5,4
70.86,0.5,2
70.92,0.5,2
70.98,0.5,3
71.04,0.5,3
71.1,0.5,2
71.16,0.5,2
71.22,0.5,0
71.28,0.5,1
71.34,0.5,3
71.4,0.5,3
71.46,0.5,4
71.52,0.5,4
71.58,0.5,1
71.64,0.5,0
71.7,0.5,2
71.76,0.5,3
71.82,0.5,2
71.88,0.5,1
71.94,0.5,3
72,0.5,4
72.06,0.5,4
72.12,0.5,3
72.18,0.5,1
72.24,0.5,1
72.3,0.5,2
72.36,0.5,2
72.42,0.5,4
72.48,0.5,6
72.54,0.5,2
72.6,0.5,3
72.66,0.5,3
72.72,0.5,0
72.78,0.5,4
72.84,0.5,2
72.9,0.5,4
72.96,0.5,1
73.02,0.5,2
73.08,0.5,1
73.14,0.5,3
73.2,0.5,7
73.26,0.5,2
73.32,0.5,4
73.38,0.5,0
73.44,0.5,4
73.5,0.5,2
73.56,0.5,3
73.62,0.5,5
73.68,0.5,1
73.74,0.5,1
73.8,0.5,7
73.86,0.5,2
73.92,0.5,1
73.98,0.5,3
74.04,0.5,3
74.1,0.5,3
74.16,0.5,5
74.22,0.5,2
74.28,0.5,2
74.34,0.5,4
74.4,0.5,3
74.46,0.5,3
74.52,0.5,9
74.58,0.5,3
74.64,0.5,2
74.7,0.5,4
74.76,0.5,6
74.82,0.5,1
74.88,0.5,2
74.94,0.5,5
75,0.5,2
75.06,0.5,1
75.12,0.5,2
75.18,0.5,3
75.24,0.5,7
75.3,0.5,2
75.36,0.5,3
75.42,0.5,6
75.48,0.5,2
75.54,0.5,6
75.6,0.5,6
75.66,0.5,5
75.72,0.5,6
75.78,0.5,5
75.84,0.5,7
75.9,0.5,4
75.96,0.5,1
76.02,0.5,10
76.08,0.5,10
76.14,0.5,6
76.2,0.5,14
76.26,0.5,14
76.32,0.5,7
76.38,0.5,5
76.44,0.5,20
76.5,0.5,13
76.56,0.5,20
76.62,0.5,12
76.68,0.5,13
76.74,0.5,7
76.8,0.5,10
76.86,0.5,8
76.92,0.5,11
76.98,0.5,6
77.04,0.5,7
77.1,0.5,11
77.16,0.5,10
77.22,0.5,9
77.28,0.5,9
77.34,0.5,5
77.4,0.5,7
77.46,0.5,8
77.52,0.5,9
77.58,0.5,10
77.64,0.5,9
77.7,0.5,4
77.76,0.5,6
77.82,0.5,6
77.88,0.5,7
77.94,0.5,8
78,0.5,8
78.06,0.5,12
78.12,0.5,5
78.18,0.5,9
78.24,0.5,6
78.3,0.5,11
78.36,0.5,8
78.42,0.5,8
78.48,0.5,6
78.54,0.5,7
78.6,0.5,2
78.66,0.5,9
78.72,0.5,10
78.78,0.5,8
78.84,0.5,10
78.9,0.5,13
78.96,0.5,5
79.02,0.5,9
79.08,0.5,5
79.14,0.5,7
79.2,0.5,8
79.26,0.5,11
79.32,0.5,10
79.38,0.5,8
79.44,0.5,9
79.5,0.5,9
79.56,0.5,7
79.62,0.5,9
79.68,0.5,4
79.74,0.5,8
79.8,0.5,4
79.86,0.5,5
79.92,0.5,8
79.98,0.5,4
80.04,0.5,6
80.1,0.5,4
80.16,0.5,6
80.22,0.5,5
80.28,0.5,1
80.34,0.5,4
80.4,0.5,3
80.46,0.5,7
80.52,0.5,10
80.58,0.5,3
80.64,0.5,4
80.7,0.5,2
80.76,0.5,3
80.82,0.5,3
80.88,0.5,5
80.94,0.5,3
81,0.5,2
81.06,0.5,5
81.12,0.5,4
81.18,0.5,0
81.24,0.5,3
81.3,0.5,2
81.36,0.5,2
81.42,0.5,3
81.48,0.5,2
81.54,0.5,2
81.6,0.5,2
81.66,0.5,2
81.72,0.5,2
81.78,0.5,2
81.84,0.5,3
81.9,0.5,5
81.96,0.5,1
82.02,0.5,3
82.08,0.5,3
82.14,0.5,6
82.2,0.5,2
82.26,0.5,4
82.32,0.5,1
82.38,0.5,5
82.44,0.5,3
82.5,0.5,4
82.56,0.5,0
82.62,0.5,2
82.68,0.5,0
82.74,0.5,2
82.8,0.5,2
82.86,0.5,2
82.92,0.5,3
82.98,0.5,1
83.04,0.5,0
83.1,0.5,3
83.16,0.5,0
83.22,0.5,3
83.28,0.5,4
83.34,0.5,1
83.4,0.5,2
83.46,0.5,4
83.52,0.5,3
83.58,0.5,0
83.64,0.5,5
83.7,0.5,1
83.76,0.5,4
83.82,0.5,3
83.88,0.5,2
83.94,0.5,1
84,0.5,0
84.06,0.5,2
84.12,0.5,4
84.18,0.5,5
84.24,0.5,1
84.3,0.5,4
84.36,0.5,1
84.42,0.5,2
84.48,0.5,4
84.54,0.5,1
84.6,0.5,0
84.66,0.5,2
84.72,0.5,1
84.78,0.5,3
84.84,0.5,3
84.9,0.5,0
84.96,0.5,2
85.02,0.5,3
85.08,0.5,1
85.14,0.5,0
85.2,0.5,2
85.26,0.5,2
85.32,0.5,3
85.38,0.5,3
85.44,0.5,8
85.5,0.5,4
85.56,0.5,5
85.62,0.5,3
85.68,0.5,1
85.74,0.5,2
85.8,0.5,1
85.86,0.5,3
85.92,0.5,3
85.98,0.5,2
86.04,0.5,2
86.1,0.5,1
86.16,0.5,6
86.22,0.5,4
86.28,0.5,5
86.34,0.5,2
86.4,0.5,5
86.46,0.5,6
86.52,0.5,5
86.58,0.5,6
86.64,0.5,4
86.7,0.5,6
86.76,0.5,5
86.82,0.5,3
86.88,0.5,6
86.94,0.5,7
87,0.5,1
87.06,0.5,5
87.12,0.5,6
87.18,0.5,6
87.24,0.5,4
87.3,0.5,5
87.36,0.5,7
87.42,0.5,5
87.48,0.5,5
87.54,0.5,5
87.6,0.5,7
87.66,0.5,4
87.72,0.5,12
87.78,0.5,6
87.84,0.5,7
87.9,0.5,10
87.96,0.5,10
88.02,0.5,11
88.08,0.5,13
88.14,0.5,15
88.2,0.5,12
88.26,0.5,13
88.32,0.5,10
88.38,0.5,16
88.44,0.5,8
88.5,0.5,5
88.56,0.5,8
88.62,0.5,6
88.68,0.5,11
88.74,0.5,9
88.8,0.5,6
88.86,0.5,3
88.92,0.5,6
88.98,0.5,9
89.04,0.5,5
89.1,0.5,10
89.16,0.5,14
89.22,0.5,5
89.28,0.5,8
89.34,0.5,5
89.4,0.5,9
89.46,0.5,3
89.52,0.5,3
89.58,0.5,7
89.64,0.5,1
89.7,0.5,7
89.76,0.5,5
89.82,0.5,4
89.88,0.5,4
89.94,0.5,0
89.98,0.5,2