File: XRD/Task 1/Si.csv
Angle, TimePerStep, Intensity
20.04,0.5,2
20.12,0.5,8
20.2,0.5,3
20.28,0.5,1
20.36,0.5,7
20.44,0.5,1
20.52,0.5,8
20.6,0.5,6
20.68,0.5,10
20.76,0.5,6
20.84,0.5,6
20.92,0.5,2
21,0.5,3
21.08,0.5,7
21.16,0.5,5
21.24,0.5,6
21.32,0.5,4
21.4,0.5,4
21.48,0.5,2
21.56,0.5,9
21.64,0.5,6
21.72,0.5,2
21.8,0.5,4
21.88,0.5,5
21.96,0.5,9
22.04,0.5,7
22.12,0.5,7
22.2,0.5,12
22.28,0.5,11
22.36,0.5,7
22.44,0.5,8
22.52,0.5,9
22.6,0.5,12
22.68,0.5,14
22.76,0.5,13
22.84,0.5,17
22.92,0.5,26
23,0.5,17
23.08,0.5,18
23.16,0.5,37
23.24,0.5,25
23.32,0.5,19
23.4,0.5,34
23.48,0.5,29
23.56,0.5,27
23.64,0.5,14
23.72,0.5,7
23.8,0.5,7
23.88,0.5,5
23.96,0.5,9
24.04,0.5,1
24.12,0.5,6
24.2,0.5,7
24.28,0.5,8
24.36,0.5,6
24.44,0.5,5
24.52,0.5,6
24.6,0.5,3
24.68,0.5,9
24.76,0.5,6
24.84,0.5,6
24.92,0.5,3
25,0.5,7
25.08,0.5,3
25.16,0.5,2
25.24,0.5,8
25.32,0.5,5
25.4,0.5,8
25.48,0.5,8
25.56,0.5,4
25.64,0.5,7
25.72,0.5,3
25.8,0.5,3
25.88,0.5,3
25.96,0.5,4
26.04,0.5,9
26.12,0.5,8
26.2,0.5,12
26.28,0.5,9
26.36,0.5,6
26.44,0.5,3
26.52,0.5,4
26.6,0.5,6
26.68,0.5,4
26.76,0.5,7
26.84,0.5,7
26.92,0.5,9
27,0.5,13
27.08,0.5,14
27.16,0.5,12
27.24,0.5,18
27.32,0.5,6
27.4,0.5,6
27.48,0.5,6
27.56,0.5,12
27.64,0.5,13
27.72,0.5,14
27.8,0.5,16
27.88,0.5,17
27.96,0.5,29
28.04,0.5,26
28.12,0.5,41
28.2,0.5,86
28.28,0.5,257
28.36,0.5,827
28.44,0.5,824
28.52,0.5,230
28.6,0.5,46
28.68,0.5,19
28.76,0.5,6
28.84,0.5,10
28.92,0.5,7
29,0.5,8
29.08,0.5,7
29.16,0.5,6
29.24,0.5,4
29.32,0.5,2
29.4,0.5,4
29.48,0.5,4
29.56,0.5,4
29.64,0.5,5
29.72,0.5,1
29.8,0.5,6
29.88,0.5,2
29.96,0.5,3
30.04,0.5,8
30.12,0.5,2
30.2,0.5,2
30.28,0.5,5
30.36,0.5,3
30.44,0.5,3
30.52,0.5,4
30.6,0.5,2
30.68,0.5,3
30.76,0.5,9
30.84,0.5,6
30.92,0.5,3
31,0.5,2
31.08,0.5,4
31.16,0.5,4
31.24,0.5,3
31.32,0.5,1
31.4,0.5,2
31.48,0.5,2
31.56,0.5,4
31.64,0.5,3
31.72,0.5,3
31.8,0.5,5
31.88,0.5,6
31.96,0.5,6
32.04,0.5,2
32.12,0.5,0
32.2,0.5,2
32.28,0.5,3
32.36,0.5,6
32.44,0.5,5
32.52,0.5,1
32.6,0.5,6
32.68,0.5,3
32.76,0.5,5
32.84,0.5,4
32.92,0.5,6
33,0.5,1
33.08,0.5,6
33.16,0.5,2
33.24,0.5,4
33.32,0.5,0
33.4,0.5,3
33.48,0.5,1
33.56,0.5,3
33.64,0.5,3
33.72,0.5,4
33.8,0.5,1
33.88,0.5,1
33.96,0.5,3
34.04,0.5,4
34.12,0.5,4
34.2,0.5,1
34.28,0.5,3
34.36,0.5,3
34.44,0.5,0
34.52,0.5,0
34.6,0.5,5
34.68,0.5,4
34.76,0.5,1
34.84,0.5,3
34.92,0.5,3
35,0.5,5
35.08,0.5,2
35.16,0.5,3
35.24,0.5,5
35.32,0.5,1
35.4,0.5,5
35.48,0.5,1
35.56,0.5,5
35.64,0.5,4
35.72,0.5,1
35.8,0.5,3
35.88,0.5,5
35.96,0.5,8
36.04,0.5,6
36.12,0.5,5
36.2,0.5,3
36.28,0.5,5
36.36,0.5,5
36.44,0.5,7
36.52,0.5,4
36.6,0.5,4
36.68,0.5,2
36.76,0.5,6
36.84,0.5,2
36.92,0.5,2
37,0.5,4
37.08,0.5,3
37.16,0.5,3
37.24,0.5,1
37.32,0.5,1
37.4,0.5,6
37.48,0.5,3
37.56,0.5,0
37.64,0.5,3
37.72,0.5,2
37.8,0.5,1
37.88,0.5,6
37.96,0.5,4
38.04,0.5,7
38.12,0.5,3
38.2,0.5,2
38.28,0.5,3
38.36,0.5,0
38.44,0.5,1
38.52,0.5,2
38.6,0.5,2
38.68,0.5,1
38.76,0.5,0
38.84,0.5,2
38.92,0.5,3
39,0.5,1
39.08,0.5,1
39.16,0.5,3
39.24,0.5,2
39.32,0.5,2
39.4,0.5,6
39.48,0.5,3
39.56,0.5,5
39.64,0.5,4
39.72,0.5,3
39.8,0.5,5
39.88,0.5,1
39.96,0.5,2
40.04,0.5,2
40.12,0.5,2
40.2,0.5,1
40.28,0.5,4
40.36,0.5,0
40.44,0.5,1
40.52,0.5,1
40.6,0.5,2
40.68,0.5,3
40.76,0.5,2
40.84,0.5,2
40.92,0.5,0
41,0.5,3
41.08,0.5,3
41.16,0.5,1
41.24,0.5,1
41.32,0.5,3
41.4,0.5,2
41.48,0.5,2
41.56,0.5,1
41.64,0.5,2
41.72,0.5,1
41.8,0.5,2
41.88,0.5,1
41.96,0.5,3
42.04,0.5,0
42.12,0.5,1
42.2,0.5,4
42.28,0.5,5
42.36,0.5,3
42.44,0.5,5
42.52,0.5,2
42.6,0.5,2
42.68,0.5,4
42.76,0.5,2
42.84,0.5,3
42.92,0.5,2
43,0.5,3
43.08,0.5,2
43.16,0.5,1
43.24,0.5,3
43.32,0.5,2
43.4,0.5,3
43.48,0.5,3
43.56,0.5,6
43.64,0.5,0
43.72,0.5,2
43.8,0.5,5
43.88,0.5,4
43.96,0.5,4
44.04,0.5,7
44.12,0.5,1
44.2,0.5,2
44.28,0.5,1
44.36,0.5,6
44.44,0.5,4
44.52,0.5,2
44.6,0.5,4
44.68,0.5,6
44.76,0.5,5
44.84,0.5,4
44.92,0.5,3
45,0.5,4
45.08,0.5,6
45.16,0.5,8
45.24,0.5,10
45.32,0.5,1
45.4,0.5,2
45.48,0.5,5
45.56,0.5,6
45.64,0.5,4
45.72,0.5,4
45.8,0.5,1
45.88,0.5,3
45.96,0.5,7
46.04,0.5,9
46.12,0.5,4
46.2,0.5,5
46.28,0.5,4
46.36,0.5,10
46.44,0.5,5
46.52,0.5,8
46.6,0.5,12
46.68,0.5,11
46.76,0.5,13
46.84,0.5,14
46.92,0.5,23
47,0.5,30
47.08,0.5,77
47.16,0.5,190
47.24,0.5,498
47.32,0.5,393
47.4,0.5,282
47.48,0.5,55
47.56,0.5,23
47.64,0.5,15
47.72,0.5,7
47.8,0.5,6
47.88,0.5,11
47.96,0.5,10
48.04,0.5,6
48.12,0.5,2
48.2,0.5,6
48.28,0.5,7
48.36,0.5,4
48.44,0.5,7
48.52,0.5,6
48.6,0.5,3
48.68,0.5,3
48.76,0.5,0
48.84,0.5,4
48.92,0.5,2
49,0.5,4
49.08,0.5,5
49.16,0.5,7
49.24,0.5,9
49.32,0.5,4
49.4,0.5,1
49.48,0.5,2
49.56,0.5,1
49.64,0.5,5
49.72,0.5,2
49.8,0.5,1
49.88,0.5,4
49.96,0.5,6
50.04,0.5,1
50.12,0.5,2
50.2,0.5,7
50.28,0.5,6
50.36,0.5,5
50.44,0.5,2
50.52,0.5,4
50.6,0.5,3
50.68,0.5,4
50.76,0.5,3
50.84,0.5,4
50.92,0.5,2
51,0.5,2
51.08,0.5,2
51.16,0.5,4
51.24,0.5,4
51.32,0.5,2
51.4,0.5,3
51.48,0.5,3
51.56,0.5,2
51.64,0.5,4
51.72,0.5,2
51.8,0.5,2
51.88,0.5,5
51.96,0.5,0
52.04,0.5,3
52.12,0.5,3
52.2,0.5,1
52.28,0.5,3
52.36,0.5,3
52.44,0.5,5
52.52,0.5,2
52.6,0.5,1
52.68,0.5,7
52.76,0.5,0
52.84,0.5,2
52.92,0.5,1
53,0.5,1
53.08,0.5,4
53.16,0.5,2
53.24,0.5,3
53.32,0.5,1
53.4,0.5,5
53.48,0.5,6
53.56,0.5,1
53.64,0.5,11
53.72,0.5,4
53.8,0.5,3
53.88,0.5,5
53.96,0.5,0
54.04,0.5,2
54.12,0.5,5
54.2,0.5,4
54.28,0.5,4
54.36,0.5,1
54.44,0.5,4
54.52,0.5,3
54.6,0.5,2
54.68,0.5,4
54.76,0.5,6
54.84,0.5,3
54.92,0.5,2
55,0.5,8
55.08,0.5,2
55.16,0.5,7
55.24,0.5,7
55.32,0.5,3
55.4,0.5,6
55.48,0.5,11
55.56,0.5,6
55.64,0.5,14
55.72,0.5,14
55.8,0.5,24
55.88,0.5,24
55.96,0.5,76
56.04,0.5,218
56.12,0.5,291
56.2,0.5,155
56.28,0.5,90
56.36,0.5,26
56.44,0.5,15
56.52,0.5,13
56.6,0.5,1
56.68,0.5,8
56.76,0.5,6
56.84,0.5,1
56.92,0.5,2
57,0.5,3
57.08,0.5,5
57.16,0.5,1
57.24,0.5,3
57.32,0.5,5
57.4,0.5,0
57.48,0.5,2
57.56,0.5,0
57.64,0.5,2
57.72,0.5,2
57.8,0.5,2
57.88,0.5,2
57.96,0.5,3
58.04,0.5,1
58.12,0.5,4
58.2,0.5,1
58.28,0.5,2
58.36,0.5,1
58.44,0.5,4
58.52,0.5,1
58.6,0.5,4
58.68,0.5,2
58.76,0.5,3
58.84,0.5,0
58.92,0.5,0
59,0.5,0
59.08,0.5,2
59.16,0.5,1
59.24,0.5,1
59.32,0.5,4
59.4,0.5,1
59.48,0.5,1
59.56,0.5,1
59.64,0.5,4
59.72,0.5,3
59.8,0.5,3
59.88,0.5,1
59.96,0.5,2
60.04,0.5,1
60.12,0.5,2
60.2,0.5,6
60.28,0.5,1
60.36,0.5,2
60.44,0.5,2
60.52,0.5,4
60.6,0.5,3
60.68,0.5,2
60.76,0.5,3
60.84,0.5,3
60.92,0.5,0
61,0.5,3
61.08,0.5,4
61.16,0.5,1
61.24,0.5,4
61.32,0.5,0
61.4,0.5,4
61.48,0.5,2
61.56,0.5,2
61.64,0.5,5
61.72,0.5,5
61.8,0.5,0
61.88,0.5,4
61.96,0.5,1
62.04,0.5,3
62.12,0.5,2
62.2,0.5,3
62.28,0.5,2
62.36,0.5,4
62.44,0.5,0
62.52,0.5,2
62.6,0.5,1
62.68,0.5,3
62.76,0.5,1
62.84,0.5,6
62.92,0.5,1
63,0.5,3
63.08,0.5,0
63.16,0.5,2
63.24,0.5,3
63.32,0.5,3
63.4,0.5,2
63.48,0.5,1
63.56,0.5,2
63.64,0.5,1
63.72,0.5,3
63.8,0.5,3
63.88,0.5,1
63.96,0.5,0
64.04,0.5,1
64.12,0.5,1
64.2,0.5,1
64.28,0.5,1
64.36,0.5,2
64.44,0.5,2
64.52,0.5,1
64.6,0.5,2
64.68,0.5,1
64.76,0.5,2
64.84,0.5,4
64.92,0.5,3
65,0.5,0
65.08,0.5,1
65.16,0.5,2
65.24,0.5,2
65.32,0.5,2
65.4,0.5,2
65.48,0.5,1
65.56,0.5,4
65.64,0.5,3
65.72,0.5,4
65.8,0.5,3
65.88,0.5,2
65.96,0.5,4
66.04,0.5,1
66.12,0.5,0
66.2,0.5,2
66.28,0.5,2
66.36,0.5,1
66.44,0.5,3
66.52,0.5,1
66.6,0.5,4
66.68,0.5,1
66.76,0.5,1
66.84,0.5,3
66.92,0.5,1
67,0.5,1
67.08,0.5,1
67.16,0.5,3
67.24,0.5,0
67.32,0.5,2
67.4,0.5,2
67.48,0.5,2
67.56,0.5,1
67.64,0.5,2
67.72,0.5,4
67.8,0.5,5
67.88,0.5,0
67.96,0.5,2
68.04,0.5,1
68.12,0.5,4
68.2,0.5,2
68.28,0.5,3
68.36,0.5,1
68.44,0.5,2
68.52,0.5,3
68.6,0.5,3
68.68,0.5,7
68.76,0.5,6
68.84,0.5,6
68.92,0.5,10
69,0.5,24
69.08,0.5,83
69.16,0.5,45
69.24,0.5,26
69.32,0.5,39
69.4,0.5,13
69.48,0.5,8
69.56,0.5,2
69.64,0.5,2
69.72,0.5,1
69.8,0.5,0
69.88,0.5,2
69.96,0.5,4
70.04,0.5,2
70.12,0.5,4
70.2,0.5,3
70.28,0.5,2
70.36,0.5,0
70.44,0.5,1
70.52,0.5,2
70.6,0.5,3
70.68,0.5,1
70.76,0.5,3
70.84,0.5,5
70.92,0.5,2
71,0.5,0
71.08,0.5,1
71.16,0.5,1
71.24,0.5,3
71.32,0.5,3
71.4,0.5,2
71.48,0.5,2
71.56,0.5,2
71.64,0.5,1
71.72,0.5,2
71.8,0.5,1
71.88,0.5,2
71.96,0.5,2
72.04,0.5,4
72.12,0.5,2
72.2,0.5,2
72.28,0.5,1
72.36,0.5,2
72.44,0.5,3
72.52,0.5,0
72.6,0.5,0
72.68,0.5,3
72.76,0.5,3
72.84,0.5,3
72.92,0.5,3
73,0.5,2
73.08,0.5,1
73.16,0.5,1
73.24,0.5,0
73.32,0.5,2
73.4,0.5,3
73.48,0.5,2
73.56,0.5,1
73.64,0.5,2
73.72,0.5,3
73.8,0.5,0
73.88,0.5,0
73.96,0.5,2
74.04,0.5,1
74.12,0.5,1
74.2,0.5,3
74.28,0.5,1
74.36,0.5,2
74.44,0.5,2
74.52,0.5,5
74.6,0.5,3
74.68,0.5,0
74.76,0.5,2
74.84,0.5,1
74.92,0.5,2
75,0.5,6
75.08,0.5,2
75.16,0.5,4
75.24,0.5,2
75.32,0.5,2
75.4,0.5,4
75.48,0.5,3
75.56,0.5,3
75.64,0.5,3
75.72,0.5,4
75.8,0.5,4
75.88,0.5,2
75.96,0.5,6
76.04,0.5,12
76.12,0.5,10
76.2,0.5,30
76.28,0.5,61
76.36,0.5,128
76.44,0.5,56
76.52,0.5,45
76.6,0.5,42
76.68,0.5,17
76.76,0.5,8
76.84,0.5,9
76.92,0.5,4
77,0.5,3
77.08,0.5,6
77.16,0.5,4
77.24,0.5,2
77.32,0.5,4
77.4,0.5,3
77.48,0.5,2
77.56,0.5,3
77.64,0.5,1
77.72,0.5,3
77.8,0.5,4
77.88,0.5,1
77.96,0.5,2
78.04,0.5,2
78.12,0.5,4
78.2,0.5,2
78.28,0.5,2
78.36,0.5,2
78.44,0.5,2
78.52,0.5,2
78.6,0.5,3
78.68,0.5,1
78.76,0.5,1
78.84,0.5,1
78.92,0.5,2
79,0.5,0
79.08,0.5,2
79.16,0.5,1
79.24,0.5,2
79.32,0.5,4
79.4,0.5,0
79.48,0.5,1
79.56,0.5,3
79.64,0.5,4
79.72,0.5,2
79.8,0.5,1
79.88,0.5,2
79.96,0.5,3
80.04,0.5,0
80.12,0.5,1
80.2,0.5,0
80.28,0.5,6
80.36,0.5,2
80.44,0.5,5
80.52,0.5,3
80.6,0.5,6
80.68,0.5,4
80.76,0.5,4
80.84,0.5,2
80.92,0.5,1
81,0.5,4
81.08,0.5,2
81.16,0.5,0
81.24,0.5,1
81.32,0.5,3
81.4,0.5,6
81.48,0.5,1
81.56,0.5,4
81.64,0.5,0
81.72,0.5,4
81.8,0.5,1
81.88,0.5,3
81.96,0.5,2
82.04,0.5,3
82.12,0.5,3
82.2,0.5,5
82.28,0.5,2
82.36,0.5,0
82.44,0.5,0
82.52,0.5,4
82.6,0.5,2
82.68,0.5,1
82.76,0.5,3
82.84,0.5,1
82.92,0.5,1
83,0.5,4
83.08,0.5,1
83.16,0.5,0
83.24,0.5,3
83.32,0.5,1
83.4,0.5,2
83.48,0.5,2
83.56,0.5,3
83.64,0.5,4
83.72,0.5,3
83.8,0.5,2
83.88,0.5,2
83.96,0.5,5
84.04,0.5,1
84.12,0.5,7
84.2,0.5,1
84.28,0.5,2
84.36,0.5,1
84.44,0.5,1
84.52,0.5,6
84.6,0.5,2
84.68,0.5,2
84.76,0.5,4
84.84,0.5,0
84.92,0.5,5
85,0.5,3
85.08,0.5,1
85.16,0.5,3
85.24,0.5,1
85.32,0.5,3
85.4,0.5,6
85.48,0.5,2
85.56,0.5,3
85.64,0.5,1
85.72,0.5,1
85.8,0.5,4
85.88,0.5,5
85.96,0.5,4
86.04,0.5,2
86.12,0.5,3
86.2,0.5,2
86.28,0.5,0
86.36,0.5,3
86.44,0.5,3
86.52,0.5,2
86.6,0.5,2
86.68,0.5,6
86.76,0.5,3
86.84,0.5,7
86.92,0.5,1
87,0.5,6
87.08,0.5,3
87.16,0.5,3
87.24,0.5,3
87.32,0.5,1
87.4,0.5,7
87.48,0.5,8
87.56,0.5,4
87.64,0.5,10
87.72,0.5,11
87.8,0.5,18
87.88,0.5,27
87.96,0.5,130
88.04,0.5,176
88.12,0.5,60
88.2,0.5,43
88.28,0.5,67
88.36,0.5,66
88.44,0.5,18
88.52,0.5,12
88.6,0.5,5
88.68,0.5,8
88.76,0.5,3
88.84,0.5,6
88.92,0.5,2
89,0.5,2
89.08,0.5,2
89.16,0.5,3
89.24,0.5,4
89.32,0.5,2
89.4,0.5,3
89.48,0.5,7
89.56,0.5,3
89.64,0.5,2
89.72,0.5,2
89.8,0.5,1
89.88,0.5,3
89.96,0.5,0
90.04,0.5,3
90.12,0.5,2
90.2,0.5,2
90.28,0.5,4
90.36,0.5,1
90.44,0.5,1
90.52,0.5,3
90.6,0.5,1
90.68,0.5,1
90.76,0.5,1
90.84,0.5,0
90.92,0.5,3
91,0.5,2
91.08,0.5,0
91.16,0.5,2
91.24,0.5,1
91.32,0.5,2
91.4,0.5,4
91.48,0.5,0
91.56,0.5,0
91.64,0.5,3
91.72,0.5,5
91.8,0.5,1
91.88,0.5,3
91.96,0.5,1
92.04,0.5,1
92.12,0.5,3
92.2,0.5,0
92.28,0.5,0
92.36,0.5,3
92.44,0.5,0
92.52,0.5,2
92.6,0.5,2
92.68,0.5,3
92.76,0.5,1
92.84,0.5,0
92.92,0.5,2
93,0.5,0
93.08,0.5,6
93.16,0.5,3
93.24,0.5,2
93.32,0.5,2
93.4,0.5,4
93.48,0.5,2
93.56,0.5,5
93.64,0.5,3
93.72,0.5,1
93.8,0.5,3
93.88,0.5,2
93.96,0.5,5
94.04,0.5,5
94.12,0.5,4
94.2,0.5,3
94.28,0.5,6
94.36,0.5,3
94.44,0.5,3
94.52,0.5,7
94.6,0.5,5
94.68,0.5,11
94.76,0.5,13
94.84,0.5,37
94.92,0.5,91
95,0.5,87
95.08,0.5,40
95.16,0.5,24
95.24,0.5,54
95.32,0.5,35
95.4,0.5,13
95.48,0.5,6
95.56,0.5,6
95.64,0.5,4
95.72,0.5,5
95.8,0.5,4
95.88,0.5,2
95.96,0.5,4
96.04,0.5,0
96.12,0.5,1
96.2,0.5,3
96.28,0.5,2
96.36,0.5,1
96.44,0.5,1
96.52,0.5,2
96.6,0.5,2
96.68,0.5,2
96.76,0.5,3
96.84,0.5,4
96.92,0.5,3
97,0.5,5
97.08,0.5,1
97.16,0.5,2
97.24,0.5,3
97.32,0.5,3
97.4,0.5,1
97.48,0.5,0
97.56,0.5,1
97.64,0.5,1
97.72,0.5,3
97.8,0.5,6
97.88,0.5,5
97.96,0.5,1
98.04,0.5,0
98.12,0.5,0
98.2,0.5,1
98.28,0.5,5
98.36,0.5,2
98.44,0.5,2
98.52,0.5,3
98.6,0.5,2
98.68,0.5,3
98.76,0.5,2
98.84,0.5,1
98.92,0.5,5
99,0.5,3
99.08,0.5,1
99.16,0.5,1
99.24,0.5,1
99.32,0.5,1
99.4,0.5,2
99.48,0.5,0
99.56,0.5,2
99.64,0.5,0
99.72,0.5,1
99.8,0.5,5
99.88,0.5,0
99.96,0.5,3
100.04,0.5,3
100.12,0.5,4
100.2,0.5,2
100.28,0.5,4
100.36,0.5,3
100.44,0.5,3
100.52,0.5,2
100.6,0.5,0
100.68,0.5,2
100.76,0.5,1
100.84,0.5,0
100.92,0.5,1
101,0.5,1
101.08,0.5,1
101.16,0.5,2
101.24,0.5,3
101.32,0.5,3
101.4,0.5,1
101.48,0.5,1
101.56,0.5,3
101.64,0.5,0
101.72,0.5,0
101.8,0.5,0
101.88,0.5,4
101.96,0.5,1
102.04,0.5,1
102.12,0.5,1
102.2,0.5,1
102.28,0.5,0
102.36,0.5,0
102.44,0.5,4
102.52,0.5,0
102.6,0.5,2
102.68,0.5,2
102.76,0.5,2
102.84,0.5,0
102.92,0.5,0
103,0.5,2
103.08,0.5,4
103.16,0.5,1
103.24,0.5,2
103.32,0.5,2
103.4,0.5,1
103.48,0.5,2
103.56,0.5,2
103.64,0.5,1
103.72,0.5,2
103.8,0.5,2
103.88,0.5,1
103.96,0.5,3
104.04,0.5,3
104.12,0.5,3
104.2,0.5,2
104.28,0.5,2
104.36,0.5,5
104.44,0.5,2
104.52,0.5,2
104.6,0.5,2
104.68,0.5,3
104.76,0.5,2
104.84,0.5,5
104.92,0.5,1
105,0.5,3
105.08,0.5,5
105.16,0.5,1
105.24,0.5,5
105.32,0.5,1
105.4,0.5,2
105.48,0.5,1
105.56,0.5,2
105.64,0.5,2
105.72,0.5,1
105.8,0.5,5
105.88,0.5,3
105.96,0.5,2
106.04,0.5,2
106.12,0.5,1
106.2,0.5,2
106.28,0.5,0
106.36,0.5,4
106.44,0.5,8
106.52,0.5,12
106.6,0.5,20
106.68,0.5,36
106.76,0.5,48
106.84,0.5,27
106.92,0.5,22
107,0.5,20
107.08,0.5,30
107.16,0.5,26
107.24,0.5,15
107.32,0.5,5
107.4,0.5,5
107.48,0.5,1
107.56,0.5,0
107.64,0.5,4
107.72,0.5,4
107.8,0.5,7
107.88,0.5,3
107.96,0.5,5
108.04,0.5,4
108.12,0.5,6
108.2,0.5,1
108.28,0.5,3
108.36,0.5,5
108.44,0.5,4
108.52,0.5,1
108.6,0.5,3
108.68,0.5,5
108.76,0.5,2
108.84,0.5,1
108.92,0.5,5
109,0.5,2
109.08,0.5,4
109.16,0.5,4
109.24,0.5,3
109.32,0.5,4
109.4,0.5,3
109.48,0.5,3
109.56,0.5,3
109.64,0.5,2
109.72,0.5,3
109.8,0.5,5
109.88,0.5,1
109.96,0.5,2
110.04,0.5,0
110.12,0.5,1
110.2,0.5,5
110.28,0.5,3
110.36,0.5,4
110.44,0.5,3
110.52,0.5,3
110.6,0.5,1
110.68,0.5,2
110.76,0.5,3
110.84,0.5,1
110.92,0.5,2
111,0.5,2
111.08,0.5,2
111.16,0.5,2
111.24,0.5,3
111.32,0.5,0
111.4,0.5,2
111.48,0.5,3
111.56,0.5,4
111.64,0.5,4
111.72,0.5,1
111.8,0.5,1
111.88,0.5,5
111.96,0.5,1
112.04,0.5,2
112.12,0.5,2
112.2,0.5,0
112.28,0.5,2
112.36,0.5,2
112.44,0.5,1
112.52,0.5,5
112.6,0.5,1
112.68,0.5,4
112.76,0.5,3
112.84,0.5,4
112.92,0.5,5
113,0.5,2
113.08,0.5,2
113.16,0.5,4
113.24,0.5,7
113.32,0.5,5
113.4,0.5,5
113.48,0.5,6
113.56,0.5,3
113.64,0.5,7
113.72,0.5,10
113.8,0.5,12
113.88,0.5,16
113.96,0.5,17
114.04,0.5,49
114.12,0.5,86
114.2,0.5,68
114.28,0.5,36
114.36,0.5,16
114.44,0.5,32
114.52,0.5,52
114.6,0.5,41
114.68,0.5,34
114.76,0.5,19
114.84,0.5,9
114.92,0.5,6
115,0.5,1
115.08,0.5,6
115.16,0.5,6
115.24,0.5,4
115.32,0.5,4
115.4,0.5,1
115.48,0.5,3
115.56,0.5,1
115.64,0.5,2
115.72,0.5,0
115.8,0.5,4
115.88,0.5,7
115.96,0.5,2
116.04,0.5,2
116.12,0.5,3
116.2,0.5,2
116.28,0.5,6
116.36,0.5,1
116.44,0.5,1
116.52,0.5,2
116.6,0.5,4
116.68,0.5,0
116.76,0.5,3
116.84,0.5,5
116.92,0.5,2
117,0.5,2
117.08,0.5,3
117.16,0.5,3
117.24,0.5,6
117.32,0.5,3
117.4,0.5,2
117.48,0.5,3
117.56,0.5,6
117.64,0.5,3
117.72,0.5,2
117.8,0.5,0
117.88,0.5,5
117.96,0.5,0
118.04,0.5,4
118.12,0.5,3
118.2,0.5,0
118.28,0.5,5
118.36,0.5,2
118.44,0.5,1
118.52,0.5,2
118.6,0.5,1
118.68,0.5,2
118.76,0.5,3
118.84,0.5,2
118.92,0.5,4
119,0.5,2
119.08,0.5,3
119.16,0.5,1
119.24,0.5,0
119.32,0.5,1
119.4,0.5,6
119.48,0.5,3
119.56,0.5,4
119.64,0.5,5
119.72,0.5,3
119.8,0.5,4
119.88,0.5,3
119.96,0.5,3
120.04,0.5,1
120.12,0.5,3
120.2,0.5,3
120.28,0.5,4
120.36,0.5,6
120.44,0.5,1
120.52,0.5,6
120.6,0.5,1
120.68,0.5,2
120.76,0.5,5
120.84,0.5,2
120.92,0.5,1
121,0.5,5
121.08,0.5,2
121.16,0.5,1
121.24,0.5,0
121.32,0.5,2
121.4,0.5,0
121.48,0.5,2
121.56,0.5,5
121.64,0.5,1
121.72,0.5,2
121.8,0.5,3
121.88,0.5,2
121.96,0.5,2
122.04,0.5,3
122.12,0.5,2
122.2,0.5,2
122.28,0.5,1
122.36,0.5,2
122.44,0.5,2
122.52,0.5,2
122.6,0.5,0
122.68,0.5,3
122.76,0.5,1
122.84,0.5,1
122.92,0.5,3
123,0.5,4
123.08,0.5,3
123.16,0.5,4
123.24,0.5,3
123.32,0.5,0
123.4,0.5,2
123.48,0.5,4
123.56,0.5,3
123.64,0.5,6
123.72,0.5,4
123.8,0.5,2
123.88,0.5,4
123.96,0.5,4
124.04,0.5,3
124.12,0.5,1
124.2,0.5,3
124.28,0.5,6
124.36,0.5,5
124.44,0.5,5
124.52,0.5,4
124.6,0.5,3
124.68,0.5,1
124.76,0.5,10
124.84,0.5,2
124.92,0.5,4
125,0.5,6
125.08,0.5,2
125.16,0.5,4
125.24,0.5,2
125.32,0.5,3
125.4,0.5,3
125.48,0.5,4
125.56,0.5,3
125.64,0.5,2
125.72,0.5,3
125.8,0.5,4
125.88,0.5,3
125.96,0.5,2
126.04,0.5,5
126.12,0.5,7
126.2,0.5,2
126.28,0.5,2
126.36,0.5,2
126.44,0.5,4
126.52,0.5,5
126.6,0.5,4
126.68,0.5,4
126.76,0.5,3
126.84,0.5,4
126.92,0.5,6
127,0.5,6
127.08,0.5,4
127.16,0.5,7
127.24,0.5,12
127.32,0.5,11
127.4,0.5,29
127.48,0.5,34
127.56,0.5,68
127.64,0.5,81
127.72,0.5,49
127.8,0.5,30
127.88,0.5,13
127.96,0.5,14
128.04,0.5,25
128.12,0.5,26
128.2,0.5,23
128.28,0.5,38
128.36,0.5,16
128.44,0.5,12
128.52,0.5,4
128.6,0.5,4
128.68,0.5,5
128.76,0.5,5
128.84,0.5,7
128.92,0.5,5
129,0.5,6
129.08,0.5,3
129.16,0.5,1
129.24,0.5,5
129.32,0.5,3
129.4,0.5,3
129.48,0.5,0
129.56,0.5,1
129.64,0.5,1
129.72,0.5,5
129.8,0.5,2
129.88,0.5,2
129.96,0.5,3
130.04,0.5,2
130.12,0.5,5
130.2,0.5,4
130.28,0.5,1
130.36,0.5,2
130.44,0.5,1
130.52,0.5,3
130.6,0.5,1
130.68,0.5,2
130.76,0.5,2
130.84,0.5,3
130.92,0.5,5
131,0.5,5
131.08,0.5,2
131.16,0.5,3
131.24,0.5,4
131.32,0.5,0
131.4,0.5,1
131.48,0.5,1
131.56,0.5,1
131.64,0.5,5
131.72,0.5,3
131.8,0.5,1
131.88,0.5,0
131.96,0.5,2
132.04,0.5,0
132.12,0.5,1
132.2,0.5,2
132.28,0.5,4
132.36,0.5,3
132.44,0.5,3
132.52,0.5,3
132.6,0.5,2
132.68,0.5,3
132.76,0.5,2
132.84,0.5,1
132.92,0.5,1
133,0.5,2
133.08,0.5,3
133.16,0.5,1
133.24,0.5,3
133.32,0.5,2
133.4,0.5,4
133.48,0.5,3
133.56,0.5,3
133.64,0.5,3
133.72,0.5,3
133.8,0.5,1
133.88,0.5,4
133.96,0.5,4
134.04,0.5,3
134.12,0.5,3
134.2,0.5,4
134.28,0.5,2
134.36,0.5,5
134.44,0.5,4
134.52,0.5,2
134.6,0.5,2
134.68,0.5,3
134.76,0.5,1
134.84,0.5,5
134.92,0.5,2
135,0.5,3
135.08,0.5,4
135.16,0.5,4
135.24,0.5,3
135.32,0.5,1
135.4,0.5,0
135.48,0.5,1
135.56,0.5,4
135.64,0.5,3
135.72,0.5,1
135.8,0.5,4
135.88,0.5,5
135.96,0.5,6
136.04,0.5,2
136.12,0.5,5
136.2,0.5,2
136.28,0.5,5
136.36,0.5,5
136.44,0.5,6
136.52,0.5,12
136.6,0.5,7
136.68,0.5,6
136.76,0.5,16
136.84,0.5,22
136.92,0.5,39
137,0.5,51
137.08,0.5,28
137.16,0.5,25
137.24,0.5,13
137.32,0.5,15
137.4,0.5,9
137.48,0.5,13
137.56,0.5,12
137.64,0.5,9
137.72,0.5,22
137.8,0.5,16
137.88,0.5,14
137.96,0.5,9
138.04,0.5,4
138.12,0.5,6
138.2,0.5,5
138.28,0.5,3
138.36,0.5,2
138.44,0.5,3
138.52,0.5,3
138.6,0.5,3
138.68,0.5,3
138.76,0.5,3
138.84,0.5,4
138.92,0.5,2
139,0.5,5
139.08,0.5,5
139.16,0.5,1
139.24,0.5,2
139.32,0.5,4
139.4,0.5,3
139.48,0.5,4
139.56,0.5,2
139.64,0.5,0
139.72,0.5,4
139.8,0.5,4
139.88,0.5,7
139.96,0.5,2