File: XRD/Task 1/ZnO.csv
Angle, TimePerStep, Intensity
30.02,0.5,10
30.1,0.5,5
30.18,0.5,9
30.26,0.5,15
30.34,0.5,10
30.42,0.5,12
30.5,0.5,8
30.58,0.5,15
30.66,0.5,9
30.74,0.5,9
30.82,0.5,10
30.9,0.5,7
30.98,0.5,16
31.06,0.5,13
31.14,0.5,24
31.22,0.5,26
31.3,0.5,23
31.38,0.5,36
31.46,0.5,65
31.54,0.5,176
31.62,0.5,699
31.7,0.5,1203
31.78,0.5,453
31.86,0.5,47
31.94,0.5,11
32.02,0.5,12
32.1,0.5,11
32.18,0.5,2
32.26,0.5,9
32.34,0.5,6
32.42,0.5,8
32.5,0.5,8
32.58,0.5,11
32.66,0.5,7
32.74,0.5,3
32.82,0.5,6
32.9,0.5,11
32.98,0.5,4
33.06,0.5,10
33.14,0.5,10
33.22,0.5,4
33.3,0.5,14
33.38,0.5,9
33.46,0.5,7
33.54,0.5,4
33.62,0.5,7
33.7,0.5,8
33.78,0.5,5
33.86,0.5,14
33.94,0.5,17
34.02,0.5,11
34.1,0.5,12
34.18,0.5,34
34.26,0.5,124
34.34,0.5,354
34.42,0.5,294
34.5,0.5,103
34.58,0.5,25
34.66,0.5,18
34.74,0.5,11
34.82,0.5,16
34.9,0.5,10
34.98,0.5,12
35.06,0.5,7
35.14,0.5,11
35.22,0.5,10
35.3,0.5,8
35.38,0.5,22
35.46,0.5,11
35.54,0.5,20
35.62,0.5,19
35.7,0.5,29
35.78,0.5,43
35.86,0.5,41
35.94,0.5,86
36.02,0.5,173
36.1,0.5,770
36.18,0.5,1853
36.26,0.5,934
36.34,0.5,220
36.42,0.5,18
36.5,0.5,20
36.58,0.5,20
36.66,0.5,5
36.74,0.5,5
36.82,0.5,6
36.9,0.5,13
36.98,0.5,10
37.06,0.5,6
37.14,0.5,3
37.22,0.5,6
37.3,0.5,5
37.38,0.5,6
37.46,0.5,4
37.54,0.5,8
37.62,0.5,7
37.7,0.5,6
37.78,0.5,2
37.86,0.5,6
37.94,0.5,3
38.02,0.5,2
38.1,0.5,5
38.18,0.5,8
38.26,0.5,8
38.34,0.5,7
38.42,0.5,3
38.5,0.5,3
38.58,0.5,8
38.66,0.5,1
38.74,0.5,5
38.82,0.5,1
38.9,0.5,5
38.98,0.5,8
39.06,0.5,2
39.14,0.5,4
39.22,0.5,5
39.3,0.5,11
39.38,0.5,4
39.46,0.5,3
39.54,0.5,2
39.62,0.5,3
39.7,0.5,3
39.78,0.5,6
39.86,0.5,9
39.94,0.5,1
40.02,0.5,4
40.1,0.5,5
40.18,0.5,6
40.26,0.5,3
40.34,0.5,3
40.42,0.5,10
40.5,0.5,2
40.58,0.5,6
40.66,0.5,3
40.74,0.5,5
40.82,0.5,4
40.9,0.5,6
40.98,0.5,3
41.06,0.5,2
41.14,0.5,7
41.22,0.5,6
41.3,0.5,9
41.38,0.5,4
41.46,0.5,4
41.54,0.5,4
41.62,0.5,5
41.7,0.5,6
41.78,0.5,5
41.86,0.5,4
41.94,0.5,4
42.02,0.5,3
42.1,0.5,4
42.18,0.5,7
42.26,0.5,5
42.34,0.5,4
42.42,0.5,3
42.5,0.5,5
42.58,0.5,4
42.66,0.5,5
42.74,0.5,5
42.82,0.5,5
42.9,0.5,3
42.98,0.5,4
43.06,0.5,6
43.14,0.5,4
43.22,0.5,2
43.3,0.5,8
43.38,0.5,3
43.46,0.5,3
43.54,0.5,2
43.62,0.5,5
43.7,0.5,4
43.78,0.5,3
43.86,0.5,4
43.94,0.5,11
44.02,0.5,6
44.1,0.5,3
44.18,0.5,3
44.26,0.5,2
44.34,0.5,2
44.42,0.5,3
44.5,0.5,3
44.58,0.5,5
44.66,0.5,4
44.74,0.5,7
44.82,0.5,4
44.9,0.5,5
44.98,0.5,4
45.06,0.5,2
45.14,0.5,3
45.22,0.5,6
45.3,0.5,5
45.38,0.5,6
45.46,0.5,4
45.54,0.5,5
45.62,0.5,2
45.7,0.5,5
45.78,0.5,5
45.86,0.5,7
45.94,0.5,7
46.02,0.5,6
46.1,0.5,9
46.18,0.5,5
46.26,0.5,4
46.34,0.5,5
46.42,0.5,3
46.5,0.5,7
46.58,0.5,9
46.66,0.5,4
46.74,0.5,3
46.82,0.5,7
46.9,0.5,9
46.98,0.5,4
47.06,0.5,8
47.14,0.5,16
47.22,0.5,15
47.3,0.5,16
47.38,0.5,78
47.46,0.5,255
47.54,0.5,235
47.62,0.5,147
47.7,0.5,34
47.78,0.5,10
47.86,0.5,4
47.94,0.5,3
48.02,0.5,7
48.1,0.5,6
48.18,0.5,5
48.26,0.5,5
48.34,0.5,4
48.42,0.5,6
48.5,0.5,3
48.58,0.5,2
48.66,0.5,4
48.74,0.5,5
48.82,0.5,5
48.9,0.5,11
48.98,0.5,8
49.06,0.5,5
49.14,0.5,7
49.22,0.5,6
49.3,0.5,2
49.38,0.5,8
49.46,0.5,3
49.54,0.5,6
49.62,0.5,8
49.7,0.5,4
49.78,0.5,7
49.86,0.5,4
49.94,0.5,5
50.02,0.5,3
50.1,0.5,8
50.18,0.5,10
50.26,0.5,1
50.34,0.5,3
50.42,0.5,4
50.5,0.5,7
50.58,0.5,3
50.66,0.5,3
50.74,0.5,4
50.82,0.5,6
50.9,0.5,2
50.98,0.5,4
51.06,0.5,5
51.14,0.5,8
51.22,0.5,5
51.3,0.5,2
51.38,0.5,3
51.46,0.5,4
51.54,0.5,1
51.62,0.5,1
51.7,0.5,5
51.78,0.5,3
51.86,0.5,5
51.94,0.5,3
52.02,0.5,6
52.1,0.5,2
52.18,0.5,5
52.26,0.5,1
52.34,0.5,6
52.42,0.5,2
52.5,0.5,4
52.58,0.5,5
52.66,0.5,2
52.74,0.5,3
52.82,0.5,4
52.9,0.5,5
52.98,0.5,5
53.06,0.5,7
53.14,0.5,5
53.22,0.5,5
53.3,0.5,12
53.38,0.5,7
53.46,0.5,2
53.54,0.5,8
53.62,0.5,7
53.7,0.5,4
53.78,0.5,9
53.86,0.5,7
53.94,0.5,7
54.02,0.5,10
54.1,0.5,3
54.18,0.5,7
54.26,0.5,6
54.34,0.5,8
54.42,0.5,3
54.5,0.5,4
54.58,0.5,11
54.66,0.5,3
54.74,0.5,5
54.82,0.5,4
54.9,0.5,5
54.98,0.5,6
55.06,0.5,8
55.14,0.5,8
55.22,0.5,11
55.3,0.5,8
55.38,0.5,3
55.46,0.5,6
55.54,0.5,6
55.62,0.5,5
55.7,0.5,5
55.78,0.5,3
55.86,0.5,6
55.94,0.5,12
56.02,0.5,10
56.1,0.5,11
56.18,0.5,24
56.26,0.5,26
56.34,0.5,42
56.42,0.5,202
56.5,0.5,574
56.58,0.5,472
56.66,0.5,286
56.74,0.5,153
56.82,0.5,29
56.9,0.5,13
56.98,0.5,6
57.06,0.5,8
57.14,0.5,7
57.22,0.5,9
57.3,0.5,9
57.38,0.5,2
57.46,0.5,6
57.54,0.5,8
57.62,0.5,5
57.7,0.5,9
57.78,0.5,7
57.86,0.5,10
57.94,0.5,5
58.02,0.5,5
58.1,0.5,2
58.18,0.5,5
58.26,0.5,4
58.34,0.5,4
58.42,0.5,4
58.5,0.5,4
58.58,0.5,2
58.66,0.5,9
58.74,0.5,7
58.82,0.5,6
58.9,0.5,5
58.98,0.5,4
59.06,0.5,10
59.14,0.5,7
59.22,0.5,5
59.3,0.5,9
59.38,0.5,4
59.46,0.5,5
59.54,0.5,3
59.62,0.5,2
59.7,0.5,7
59.78,0.5,3
59.86,0.5,8
59.94,0.5,5
60.02,0.5,6
60.1,0.5,6
60.18,0.5,8
60.26,0.5,4
60.34,0.5,5
60.42,0.5,8
60.5,0.5,4
60.58,0.5,12
60.66,0.5,7
60.74,0.5,6
60.82,0.5,8
60.9,0.5,9
60.98,0.5,10
61.06,0.5,9
61.14,0.5,10
61.22,0.5,3
61.3,0.5,6
61.38,0.5,8
61.46,0.5,7
61.54,0.5,6
61.62,0.5,6
61.7,0.5,6
61.78,0.5,9
61.86,0.5,9
61.94,0.5,7
62.02,0.5,5
62.1,0.5,4
62.18,0.5,5
62.26,0.5,14
62.34,0.5,12
62.42,0.5,10
62.5,0.5,16
62.58,0.5,11
62.66,0.5,19
62.74,0.5,85
62.82,0.5,255
62.9,0.5,264
62.98,0.5,122
63.06,0.5,105
63.14,0.5,28
63.22,0.5,9
63.3,0.5,9
63.38,0.5,3
63.46,0.5,7
63.54,0.5,3
63.62,0.5,2
63.7,0.5,11
63.78,0.5,11
63.86,0.5,14
63.94,0.5,8
64.02,0.5,6
64.1,0.5,3
64.18,0.5,8
64.26,0.5,7
64.34,0.5,5
64.42,0.5,8
64.5,0.5,7
64.58,0.5,3
64.66,0.5,6
64.74,0.5,6
64.82,0.5,5
64.9,0.5,3
64.98,0.5,7
65.06,0.5,6
65.14,0.5,7
65.22,0.5,5
65.3,0.5,6
65.38,0.5,7
65.46,0.5,5
65.54,0.5,5
65.62,0.5,9
65.7,0.5,7
65.78,0.5,6
65.86,0.5,7
65.94,0.5,8
66.02,0.5,20
66.1,0.5,7
66.18,0.5,25
66.26,0.5,69
66.34,0.5,97
66.42,0.5,43
66.5,0.5,58
66.58,0.5,28
66.66,0.5,11
66.74,0.5,5
66.82,0.5,7
66.9,0.5,12
66.98,0.5,9
67.06,0.5,8
67.14,0.5,8
67.22,0.5,7
67.3,0.5,8
67.38,0.5,12
67.46,0.5,19
67.54,0.5,22
67.62,0.5,16
67.7,0.5,15
67.78,0.5,90
67.86,0.5,268
67.94,0.5,363
68.02,0.5,180
68.1,0.5,197
68.18,0.5,87
68.26,0.5,30
68.34,0.5,9
68.42,0.5,6
68.5,0.5,10
68.58,0.5,9
68.66,0.5,11
68.74,0.5,18
68.82,0.5,19
68.9,0.5,57
68.98,0.5,176
69.06,0.5,208
69.14,0.5,93
69.22,0.5,108
69.3,0.5,60
69.38,0.5,14
69.46,0.5,8
69.54,0.5,6
69.62,0.5,6
69.7,0.5,12
69.78,0.5,4
69.86,0.5,2
69.94,0.5,7
70.02,0.5,3
70.1,0.5,3
70.18,0.5,8
70.26,0.5,5
70.34,0.5,9
70.42,0.5,8
70.5,0.5,8
70.58,0.5,6
70.66,0.5,9
70.74,0.5,4
70.82,0.5,6
70.9,0.5,7
70.98,0.5,5
71.06,0.5,1
71.14,0.5,1
71.22,0.5,6
71.3,0.5,3
71.38,0.5,4
71.46,0.5,6
71.54,0.5,1
71.62,0.5,3
71.7,0.5,6
71.78,0.5,6
71.86,0.5,7
71.94,0.5,7
72.02,0.5,7
72.1,0.5,9
72.18,0.5,7
72.26,0.5,4
72.34,0.5,6
72.42,0.5,4
72.5,0.5,8
72.58,0.5,21
72.66,0.5,26
72.74,0.5,12
72.82,0.5,6
72.9,0.5,5
72.98,0.5,3
73.06,0.5,11
73.14,0.5,7
73.22,0.5,2
73.3,0.5,5
73.38,0.5,2
73.46,0.5,3
73.54,0.5,3
73.62,0.5,4
73.7,0.5,6
73.78,0.5,3
73.86,0.5,5
73.94,0.5,10
74.02,0.5,1
74.1,0.5,7
74.18,0.5,6
74.26,0.5,7
74.34,0.5,8
74.42,0.5,7
74.5,0.5,5
74.58,0.5,2
74.66,0.5,5
74.74,0.5,4
74.82,0.5,4
74.9,0.5,4
74.98,0.5,0
75.06,0.5,10
75.14,0.5,9
75.22,0.5,3
75.3,0.5,4
75.38,0.5,6
75.46,0.5,8
75.54,0.5,6
75.62,0.5,6
75.7,0.5,4
75.78,0.5,2
75.86,0.5,7
75.94,0.5,9
76.02,0.5,5
76.1,0.5,4
76.18,0.5,9
76.26,0.5,7
76.34,0.5,8
76.42,0.5,6
76.5,0.5,4
76.58,0.5,6
76.66,0.5,6
76.74,0.5,9
76.82,0.5,27
76.9,0.5,53
76.98,0.5,58
77.06,0.5,23
77.14,0.5,31
77.22,0.5,20
77.3,0.5,5
77.38,0.5,9
77.46,0.5,2
77.54,0.5,6
77.62,0.5,4
77.7,0.5,6
77.78,0.5,6
77.86,0.5,5
77.94,0.5,5
78.02,0.5,5
78.1,0.5,6
78.18,0.5,1
78.26,0.5,3
78.34,0.5,6
78.42,0.5,0
78.5,0.5,4
78.58,0.5,3
78.66,0.5,9
78.74,0.5,4
78.82,0.5,7
78.9,0.5,5
78.98,0.5,5
79.06,0.5,10
79.14,0.5,4
79.22,0.5,2
79.3,0.5,6
79.38,0.5,7
79.46,0.5,2
79.54,0.5,10
79.62,0.5,4
79.7,0.5,5
79.78,0.5,6
79.86,0.5,4
79.94,0.5,11
80.02,0.5,2
80.1,0.5,4
80.18,0.5,3
80.26,0.5,5
80.34,0.5,3
80.42,0.5,4
80.5,0.5,5
80.58,0.5,7
80.66,0.5,2
80.74,0.5,8
80.82,0.5,2
80.9,0.5,5
80.98,0.5,4
81.06,0.5,7
81.14,0.5,6
81.22,0.5,10
81.3,0.5,8
81.38,0.5,20
81.46,0.5,17
81.54,0.5,15
81.62,0.5,13
81.7,0.5,11
81.78,0.5,6
81.86,0.5,4
81.94,0.5,4
82.02,0.5,2
82.1,0.5,6
82.18,0.5,1
82.26,0.5,1
82.34,0.5,7
82.42,0.5,7
82.5,0.5,9
82.58,0.5,6
82.66,0.5,3
82.74,0.5,2
82.82,0.5,2
82.9,0.5,5
82.98,0.5,8
83.06,0.5,4
83.14,0.5,7
83.22,0.5,9
83.3,0.5,7
83.38,0.5,3
83.46,0.5,5
83.54,0.5,3
83.62,0.5,0
83.7,0.5,3
83.78,0.5,4
83.86,0.5,3
83.94,0.5,6
84.02,0.5,6
84.1,0.5,3
84.18,0.5,4
84.26,0.5,3
84.34,0.5,9
84.42,0.5,4
84.5,0.5,4
84.58,0.5,2
84.66,0.5,5
84.74,0.5,1
84.82,0.5,7
84.9,0.5,4
84.98,0.5,2
85.06,0.5,5
85.14,0.5,5
85.22,0.5,8
85.3,0.5,2
85.38,0.5,5
85.46,0.5,3
85.54,0.5,1
85.62,0.5,4
85.7,0.5,3
85.78,0.5,7
85.86,0.5,8
85.94,0.5,7
86.02,0.5,2
86.1,0.5,8
86.18,0.5,4
86.26,0.5,4
86.34,0.5,5
86.42,0.5,6
86.5,0.5,8
86.58,0.5,6
86.66,0.5,8
86.74,0.5,4
86.82,0.5,4
86.9,0.5,6
86.98,0.5,4
87.06,0.5,4
87.14,0.5,1
87.22,0.5,5
87.3,0.5,4
87.38,0.5,6
87.46,0.5,4
87.54,0.5,8
87.62,0.5,7
87.7,0.5,4
87.78,0.5,4
87.86,0.5,8
87.94,0.5,3
88.02,0.5,3
88.1,0.5,4
88.18,0.5,8
88.26,0.5,7
88.34,0.5,3
88.42,0.5,5
88.5,0.5,11
88.58,0.5,7
88.66,0.5,7
88.74,0.5,7
88.82,0.5,6
88.9,0.5,4
88.98,0.5,2
89.06,0.5,4
89.14,0.5,9
89.22,0.5,7
89.3,0.5,12
89.38,0.5,10
89.46,0.5,11
89.54,0.5,63
89.62,0.5,97
89.7,0.5,77
89.78,0.5,25
89.86,0.5,39
89.94,0.5,47
90.02,0.5,33
90.1,0.5,8
90.18,0.5,10
90.26,0.5,6
90.34,0.5,4
90.42,0.5,7
90.5,0.5,5
90.58,0.5,4
90.66,0.5,5
90.74,0.5,6
90.82,0.5,6
90.9,0.5,3
90.98,0.5,6
91.06,0.5,4
91.14,0.5,6
91.22,0.5,8
91.3,0.5,2
91.38,0.5,10
91.46,0.5,6
91.54,0.5,5
91.62,0.5,4
91.7,0.5,9
91.78,0.5,9
91.86,0.5,11
91.94,0.5,7
92.02,0.5,7
92.1,0.5,9
92.18,0.5,8
92.26,0.5,7
92.34,0.5,6
92.42,0.5,5
92.5,0.5,9
92.58,0.5,5
92.66,0.5,37
92.74,0.5,70
92.82,0.5,55
92.9,0.5,17
92.98,0.5,19
93.06,0.5,34
93.14,0.5,23
93.22,0.5,11
93.3,0.5,9
93.38,0.5,6
93.46,0.5,6
93.54,0.5,4
93.62,0.5,4
93.7,0.5,3
93.78,0.5,5
93.86,0.5,5
93.94,0.5,4
94.02,0.5,6
94.1,0.5,7
94.18,0.5,7
94.26,0.5,8
94.34,0.5,8
94.42,0.5,4
94.5,0.5,5
94.58,0.5,8
94.66,0.5,11
94.74,0.5,8
94.82,0.5,7
94.9,0.5,10
94.98,0.5,16
95.06,0.5,21
95.14,0.5,55
95.22,0.5,121
95.3,0.5,171
95.38,0.5,102
95.46,0.5,45
95.54,0.5,79
95.62,0.5,90
95.7,0.5,53
95.78,0.5,24
95.86,0.5,12
95.94,0.5,5
96.02,0.5,9
96.1,0.5,6
96.18,0.5,3
96.26,0.5,6
96.34,0.5,10
96.42,0.5,4
96.5,0.5,6
96.58,0.5,2
96.66,0.5,8
96.74,0.5,5
96.82,0.5,6
96.9,0.5,3
96.98,0.5,10
97.06,0.5,8
97.14,0.5,5
97.22,0.5,7
97.3,0.5,2
97.38,0.5,6
97.46,0.5,6
97.54,0.5,4
97.62,0.5,5
97.7,0.5,4
97.78,0.5,6
97.86,0.5,3
97.94,0.5,5
98.02,0.5,7
98.1,0.5,8
98.18,0.5,9
98.26,0.5,0
98.34,0.5,4
98.42,0.5,7
98.5,0.5,7
98.58,0.5,16
98.66,0.5,43
98.74,0.5,36
98.82,0.5,13
98.9,0.5,15
98.98,0.5,24
99.06,0.5,29
99.14,0.5,12
99.22,0.5,7
99.3,0.5,8
99.38,0.5,10
99.46,0.5,5
99.54,0.5,6
99.62,0.5,4
99.7,0.5,5
99.78,0.5,5
99.86,0.5,4
99.94,0.5,11
100.02,0.5,7
100.1,0.5,5
100.18,0.5,11
100.26,0.5,10
100.34,0.5,1
100.42,0.5,1
100.5,0.5,6
100.58,0.5,3
100.66,0.5,5
100.74,0.5,10
100.82,0.5,3
100.9,0.5,2
100.98,0.5,4
101.06,0.5,10
101.14,0.5,6
101.22,0.5,3
101.3,0.5,6
101.38,0.5,5
101.46,0.5,9
101.54,0.5,6
101.62,0.5,8
101.7,0.5,4
101.78,0.5,4
101.86,0.5,6
101.94,0.5,8
102.02,0.5,8
102.1,0.5,4
102.18,0.5,7
102.26,0.5,4
102.34,0.5,6
102.42,0.5,10
102.5,0.5,4
102.58,0.5,8
102.66,0.5,3
102.74,0.5,19
102.82,0.5,38
102.9,0.5,51
102.98,0.5,51
103.06,0.5,30
103.14,0.5,31
103.22,0.5,15
103.3,0.5,41
103.38,0.5,26
103.46,0.5,12
103.54,0.5,7
103.62,0.5,10
103.7,0.5,5
103.78,0.5,10
103.86,0.5,8
103.94,0.5,5
104.02,0.5,9
104.1,0.5,12
104.18,0.5,36
104.26,0.5,60
104.34,0.5,43
104.42,0.5,22
104.5,0.5,15
104.58,0.5,28
104.66,0.5,31
104.74,0.5,17
104.82,0.5,14
104.9,0.5,4
104.98,0.5,8
105.06,0.5,8
105.14,0.5,11
105.22,0.5,2
105.3,0.5,10
105.38,0.5,9
105.46,0.5,5
105.54,0.5,7
105.62,0.5,3
105.7,0.5,7
105.78,0.5,5
105.86,0.5,8
105.94,0.5,4
106.02,0.5,10
106.1,0.5,4
106.18,0.5,4
106.26,0.5,8
106.34,0.5,4
106.42,0.5,5
106.5,0.5,7
106.58,0.5,2
106.66,0.5,5
106.74,0.5,3
106.82,0.5,3
106.9,0.5,0
106.98,0.5,3
107.06,0.5,3
107.14,0.5,3
107.22,0.5,5
107.3,0.5,1
107.38,0.5,3
107.46,0.5,17
107.54,0.5,19
107.62,0.5,13
107.7,0.5,8
107.78,0.5,4
107.86,0.5,9
107.94,0.5,7
108.02,0.5,9
108.1,0.5,9
108.18,0.5,2
108.26,0.5,5
108.34,0.5,9
108.42,0.5,8
108.5,0.5,7
108.58,0.5,3
108.66,0.5,4
108.74,0.5,6
108.82,0.5,4
108.9,0.5,6
108.98,0.5,9
109.06,0.5,6
109.14,0.5,6
109.22,0.5,4
109.3,0.5,5
109.38,0.5,5
109.46,0.5,6
109.54,0.5,8
109.62,0.5,3
109.7,0.5,12
109.78,0.5,9
109.86,0.5,9
109.94,0.5,7
110.02,0.5,13
110.1,0.5,9
110.18,0.5,15
110.26,0.5,34
110.34,0.5,51
110.42,0.5,71
110.5,0.5,43
110.58,0.5,25
110.66,0.5,27
110.74,0.5,36
110.82,0.5,35
110.9,0.5,27
110.98,0.5,6
111.06,0.5,13
111.14,0.5,8
111.22,0.5,6
111.3,0.5,5
111.38,0.5,4
111.46,0.5,9
111.54,0.5,3
111.62,0.5,5
111.7,0.5,6
111.78,0.5,12
111.86,0.5,8
111.94,0.5,4
112.02,0.5,6
112.1,0.5,5
112.18,0.5,2
112.26,0.5,7
112.34,0.5,4
112.42,0.5,6
112.5,0.5,7
112.58,0.5,5
112.66,0.5,9
112.74,0.5,6
112.82,0.5,3
112.9,0.5,7
112.98,0.5,5
113.06,0.5,5
113.14,0.5,3
113.22,0.5,7
113.3,0.5,6
113.38,0.5,6
113.46,0.5,4
113.54,0.5,10
113.62,0.5,6
113.7,0.5,6
113.78,0.5,4
113.86,0.5,8
113.94,0.5,6
114.02,0.5,3
114.1,0.5,6
114.18,0.5,7
114.26,0.5,7
114.34,0.5,5
114.42,0.5,5
114.5,0.5,8
114.58,0.5,5
114.66,0.5,8
114.74,0.5,6
114.82,0.5,5
114.9,0.5,3
114.98,0.5,7
115.06,0.5,6
115.14,0.5,9
115.22,0.5,10
115.3,0.5,4
115.38,0.5,7
115.46,0.5,7
115.54,0.5,13
115.62,0.5,4
115.7,0.5,7
115.78,0.5,6
115.86,0.5,11
115.94,0.5,7
116.02,0.5,13
116.1,0.5,34
116.18,0.5,45
116.26,0.5,90
116.34,0.5,143
116.42,0.5,146
116.5,0.5,47
116.58,0.5,42
116.66,0.5,46
116.74,0.5,58
116.82,0.5,87
116.9,0.5,47
116.98,0.5,24
117.06,0.5,19
117.14,0.5,9
117.22,0.5,10
117.3,0.5,16
117.38,0.5,8
117.46,0.5,8
117.54,0.5,11
117.62,0.5,4
117.7,0.5,8
117.78,0.5,4
117.86,0.5,4
117.94,0.5,3
118.02,0.5,7
118.1,0.5,2
118.18,0.5,3
118.26,0.5,10
118.34,0.5,4
118.42,0.5,5
118.5,0.5,7
118.58,0.5,6
118.66,0.5,5
118.74,0.5,8
118.82,0.5,4
118.9,0.5,6
118.98,0.5,2
119.06,0.5,8
119.14,0.5,8
119.22,0.5,8
119.3,0.5,1
119.38,0.5,4
119.46,0.5,3
119.54,0.5,10
119.62,0.5,4
119.7,0.5,8
119.78,0.5,6
119.86,0.5,10
119.94,0.5,8
120.02,0.5,5
120.1,0.5,5
120.18,0.5,7
120.26,0.5,3
120.34,0.5,3
120.42,0.5,2
120.5,0.5,11
120.58,0.5,4
120.66,0.5,7
120.74,0.5,8
120.82,0.5,5
120.9,0.5,7
120.98,0.5,8
121.06,0.5,4
121.14,0.5,7
121.22,0.5,3
121.3,0.5,11
121.38,0.5,27
121.46,0.5,37
121.54,0.5,68
121.62,0.5,86
121.7,0.5,81
121.78,0.5,35
121.86,0.5,23
121.94,0.5,21
122.02,0.5,33
122.1,0.5,37
122.18,0.5,47
122.26,0.5,21
122.34,0.5,14
122.42,0.5,7
122.5,0.5,4
122.58,0.5,6
122.66,0.5,4
122.74,0.5,6
122.82,0.5,7
122.9,0.5,9
122.98,0.5,6
123.06,0.5,7
123.14,0.5,6
123.22,0.5,4
123.3,0.5,8
123.38,0.5,5
123.46,0.5,6
123.54,0.5,4
123.62,0.5,10
123.7,0.5,4
123.78,0.5,4
123.86,0.5,5
123.94,0.5,5
124.02,0.5,0
124.1,0.5,3
124.18,0.5,5
124.26,0.5,5
124.34,0.5,8
124.42,0.5,8
124.5,0.5,6
124.58,0.5,5
124.66,0.5,5
124.74,0.5,9
124.82,0.5,5
124.9,0.5,5
124.98,0.5,13
125.06,0.5,7
125.14,0.5,6
125.22,0.5,9
125.3,0.5,8
125.38,0.5,9
125.46,0.5,12
125.54,0.5,8
125.62,0.5,9
125.7,0.5,8
125.78,0.5,5
125.86,0.5,11
125.94,0.5,7
126.02,0.5,5
126.1,0.5,8
126.18,0.5,2
126.26,0.5,6
126.34,0.5,6
126.42,0.5,5
126.5,0.5,3
126.58,0.5,3
126.66,0.5,6
126.74,0.5,4
126.82,0.5,2
126.9,0.5,7
126.98,0.5,2
127.06,0.5,4
127.14,0.5,7
127.22,0.5,5
127.3,0.5,3
127.38,0.5,8
127.46,0.5,7
127.54,0.5,6
127.62,0.5,3
127.7,0.5,5
127.78,0.5,6
127.86,0.5,7
127.94,0.5,5
128.02,0.5,3
128.1,0.5,1
128.18,0.5,6
128.26,0.5,8
128.34,0.5,6
128.42,0.5,8
128.5,0.5,5
128.58,0.5,4
128.66,0.5,3
128.74,0.5,5
128.82,0.5,8
128.9,0.5,4
128.98,0.5,4
129.06,0.5,5
129.14,0.5,6
129.22,0.5,8
129.3,0.5,4
129.38,0.5,7
129.46,0.5,6
129.54,0.5,6
129.62,0.5,3
129.7,0.5,4
129.78,0.5,10
129.86,0.5,4
129.94,0.5,6
129.98,0.5,7